trials.thisTrialN,trials.stepSize,trials.intensity,fixtation.started,grating.started,key_resp.started,fixtation.stopped,grating.stopped,corrAns,tilt,key_resp.corr,trials.response,key_resp.rt,participant,session,date,expName,psychopyVersion,frameRate,
0,2,10.0,9.176607900066301,9.699894500197843,9.699894500197843,9.717127500101924,10.000905100023374,right,10.0,1,1,2.688756499905139,061451,001,2023-09-01_11h37.13.486,project 3,2023.1.3,59.744008868988445,
1,2,8.0,12.418545100139454,12.903736600186676,12.903736600186676,12.920039200223982,13.202904500067234,left,-8.0,1,1,0.938688799738884,061451,001,2023-09-01_11h37.13.486,project 3,2023.1.3,59.744008868988445,
2,2,6.0,13.870134300086647,14.370483300182968,14.370483300182968,14.370483300182968,14.67026020004414,right,6.0,1,1,0.6902005998417735,061451,001,2023-09-01_11h37.13.486,project 3,2023.1.3,59.744008868988445,
3,2,4.0,15.087367200059816,15.587384700076655,15.587384700076655,15.587384700076655,15.887281900038943,left,-4.0,1,1,0.7017618999816477,061451,001,2023-09-01_11h37.13.486,project 3,2023.1.3,59.744008868988445,
4,2,2.0,16.320892400108278,16.821226100204512,16.821226100204512,16.821226100204512,17.121103800134733,right,2.0,1,1,0.6745263999328017,061451,001,2023-09-01_11h37.13.486,project 3,2023.1.3,59.744008868988445,
5,2,1.0,17.52165440004319,18.02198740001768,18.02198740001768,18.02198740001768,18.3217604001984,left,-1.0,1,1,0.4568928999360651,061451,001,2023-09-01_11h37.13.486,project 3,2023.1.3,59.744008868988445,
6,2,1.0,18.505296300165355,19.005316000198945,19.005316000198945,19.005316000198945,19.305680999998003,right,1.0,1,1,0.5688728999812156,061451,001,2023-09-01_11h37.13.486,project 3,2023.1.3,59.744008868988445,
7,2,1.0,19.605463500134647,20.106208400102332,20.106208400102332,20.106208400102332,20.40614420012571,left,-1.0,1,1,0.9380703999195248,061451,001,2023-09-01_11h37.13.486,project 3,2023.1.3,59.744008868988445,
8,2,1.0,21.072546900017187,21.57355480012484,21.57355480012484,21.57355480012484,21.872968500014395,right,1.0,1,1,0.47969859978184104,061451,001,2023-09-01_11h37.13.486,project 3,2023.1.3,59.744008868988445,
9,2,1.0,22.073198000201955,22.573346100049093,22.573346100049093,22.573346100049093,22.873493400169536,right,1.0,1,1,0.8650509999133646,061451,001,2023-09-01_11h37.13.486,project 3,2023.1.3,59.744008868988445,
10,2,1.0,23.45719060022384,23.95766960014589,23.95766960014589,23.95766960014589,24.25713810021989,right,1.0,1,1,0.5788091998547316,061451,001,2023-09-01_11h37.13.486,project 3,2023.1.3,59.744008868988445,
11,1,1.0,24.557097900193185,25.058006700128317,25.058006700128317,25.058006700128317,25.358064000029117,left,-1.0,0,0,1.0327458998654038,061451,001,2023-09-01_11h37.13.486,project 3,2023.1.3,59.744008868988445,
12,1,2.0,26.107980500208214,26.59159680013545,26.59159680013545,26.6080304000061,26.891682700021192,right,2.0,1,1,0.5502253999002278,061451,001,2023-09-01_11h37.13.486,project 3,2023.1.3,59.744008868988445,
13,1,2.0,27.15809030015953,27.65870470018126,27.65870470018126,27.65870470018126,27.959243200020865,right,2.0,1,1,0.44900089991278946,061451,001,2023-09-01_11h37.13.486,project 3,2023.1.3,59.744008868988445,
14,1,2.0,28.125746300211176,28.625641900114715,28.625641900114715,28.625641900114715,28.925583200063556,left,-2.0,1,1,0.4509477000683546,061451,001,2023-09-01_11h37.13.486,project 3,2023.1.3,59.744008868988445,
15,1,1.0,29.092728400137275,29.59284200007096,29.59284200007096,29.59284200007096,29.892646400025114,right,1.0,1,1,0.48047009971924126,061451,001,2023-09-01_11h37.13.486,project 3,2023.1.3,59.744008868988445,
16,1,1.0,30.092981800204143,30.593315000180155,30.593315000180155,30.593315000180155,30.893103800015524,left,-1.0,1,1,0.3852433997672051,061451,001,2023-09-01_11h37.13.486,project 3,2023.1.3,59.744008868988445,
17,0.5,1.0,31.010471899993718,31.510088600218296,31.510088600218296,31.510088600218296,31.81008390011266,left,-1.0,0,0,0.368784099817276,061451,001,2023-09-01_11h37.13.486,project 3,2023.1.3,59.744008868988445,
18,0.5,1.5,31.910458100028336,32.41030800016597,32.41030800016597,32.41030800016597,32.71040630014613,left,-1.5,1,1,0.39629950001835823,061451,001,2023-09-01_11h37.13.486,project 3,2023.1.3,59.744008868988445,
19,0.5,1.5,32.82740360009484,33.327658200170845,33.327658200170845,33.327658200170845,33.62797210016288,right,1.5,1,1,0.7096942998468876,061451,001,2023-09-01_11h37.13.486,project 3,2023.1.3,59.744008868988445,
20,0.5,1.5,34.06117210001685,34.54455510014668,34.54455510014668,34.561135600088164,34.8450292001944,right,1.5,0,0,0.7974093998782337,061451,001,2023-09-01_11h37.13.486,project 3,2023.1.3,59.744008868988445,
21,0.5,2.0,35.36173240002245,35.861968600191176,35.861968600191176,35.861968600191176,36.16180820018053,right,2.0,1,1,0.7998710998799652,061451,001,2023-09-01_11h37.13.486,project 3,2023.1.3,59.744008868988445,
22,0.5,2.0,36.67836150014773,37.17887190007605,37.17887190007605,37.17887190007605,37.47888090019114,left,-2.0,1,1,0.8901404999196529,061451,001,2023-09-01_11h37.13.486,project 3,2023.1.3,59.744008868988445,
23,0.5,2.0,38.09577240003273,38.59629190014675,38.59629190014675,38.59629190014675,38.89623750001192,left,-2.0,0,0,0.501998599851504,061451,001,2023-09-01_11h37.13.486,project 3,2023.1.3,59.744008868988445,
24,0.5,2.5,39.12967390008271,39.613500200212,39.613500200212,39.6295112001244,39.913685200037435,right,2.5,0,0,0.7578101998660713,061451,001,2023-09-01_11h37.13.486,project 3,2023.1.3,59.744008868988445,
25,0.5,3.0,40.39618939999491,40.89706340013072,40.89706340013072,40.89706340013072,41.197031900053844,right,3.0,1,1,0.84734239988029,061451,001,2023-09-01_11h37.13.486,project 3,2023.1.3,59.744008868988445,
26,0.5,3.0,41.76399890007451,42.264352600090206,42.264352600090206,42.264352600090206,42.56409280002117,right,3.0,1,1,0.469821099890396,061451,001,2023-09-01_11h37.13.486,project 3,2023.1.3,59.744008868988445,
27,0.5,3.0,42.76418450009078,43.26463020010851,43.26463020010851,43.26463020010851,43.56478700018488,left,-3.0,0,0,0.34568140003830194,061451,001,2023-09-01_11h37.13.486,project 3,2023.1.3,59.744008868988445,
28,0.5,3.5,43.631000000052154,44.13133370014839,44.13133370014839,44.13133370014839,44.431966700125486,right,3.5,0,0,0.36809609993360937,061451,001,2023-09-01_11h37.13.486,project 3,2023.1.3,59.744008868988445,
29,0.5,4.0,44.53146030008793,45.03167759999633,45.03167759999633,45.03167759999633,45.331762599991634,right,4.0,1,1,0.3328446999657899,061451,001,2023-09-01_11h37.13.486,project 3,2023.1.3,59.744008868988445,
30,0.5,4.0,45.381997200194746,45.88250790000893,45.88250790000893,45.88250790000893,46.182622499996796,right,4.0,1,1,0.4262019998859614,061451,001,2023-09-01_11h37.13.486,project 3,2023.1.3,59.744008868988445,
31,0.5,4.0,46.33193440013565,46.83232370018959,46.83232370018959,46.83232370018959,47.13243060000241,left,-4.0,1,1,0.5608396998140961,061451,001,2023-09-01_11h37.13.486,project 3,2023.1.3,59.744008868988445,
32,0.5,3.5,47.41626410000026,47.900034700054675,47.900034700054675,47.91660400014371,48.200270500034094,left,-3.5,1,1,0.4915920998901129,061451,001,2023-09-01_11h37.13.486,project 3,2023.1.3,59.744008868988445,
33,0.5,3.5,48.41616400005296,48.899793500080705,48.899793500080705,48.916438300162554,49.200087200151756,right,3.5,1,1,0.42822379991412163,061451,001,2023-09-01_11h37.13.486,project 3,2023.1.3,59.744008868988445,
34,0.5,3.5,49.35005520004779,49.85063730017282,49.85063730017282,49.85063730017282,50.150795800145715,right,3.5,0,0,0.37226409977301955,061451,001,2023-09-01_11h37.13.486,project 3,2023.1.3,59.744008868988445,
35,0.5,4.0,50.249757200013846,50.73530490021221,50.73530490021221,50.75059480010532,51.034397700103,left,-4.0,0,0,0.3353935000486672,061451,001,2023-09-01_11h37.13.486,project 3,2023.1.3,59.744008868988445,
36,0.5,4.5,51.10102659999393,51.6010879999958,51.6010879999958,51.6010879999958,51.90091480012052,right,4.5,0,0,0.5899541999679059,061451,001,2023-09-01_11h37.13.486,project 3,2023.1.3,59.744008868988445,
37,0.5,5.0,52.217306800186634,52.70154540007934,52.70154540007934,52.71832050010562,53.00212170020677,right,5.0,1,1,0.7650383997242898,061451,001,2023-09-01_11h37.13.486,project 3,2023.1.3,59.744008868988445,
38,0.5,5.0,53.4848172001075,53.985157100018114,53.985157100018114,53.985157100018114,54.28531760000624,left,-5.0,1,1,0.7566485998686403,061451,001,2023-09-01_11h37.13.486,project 3,2023.1.3,59.744008868988445,
39,0.5,5.0,54.768509700195864,55.26889599999413,55.26889599999413,55.26889599999413,55.569624700117856,right,5.0,1,1,0.5405470000114292,061451,001,2023-09-01_11h37.13.486,project 3,2023.1.3,59.744008868988445,
40,0.5,4.5,55.835462799994275,56.31936960015446,56.31936960015446,56.33662510011345,56.6196690001525,left,-4.5,1,1,0.5362546998076141,061451,001,2023-09-01_11h37.13.486,project 3,2023.1.3,59.744008868988445,
41,0.5,4.5,56.88616010011174,57.387028200086206,57.387028200086206,57.387028200086206,57.686478400137275,right,4.5,1,1,0.3527187998406589,061451,001,2023-09-01_11h37.13.486,project 3,2023.1.3,59.744008868988445,
42,0.5,4.5,57.77034620009363,58.25376670015976,58.25376670015976,58.27031290018931,58.553889100207016,right,4.5,1,1,0.7094690997619182,061451,001,2023-09-01_11h37.13.486,project 3,2023.1.3,59.744008868988445,
43,0.5,4.0,58.987037600018084,59.48716410016641,59.48716410016641,59.48716410016641,59.78739020018838,right,4.0,1,1,0.5902849999256432,061451,001,2023-09-01_11h37.13.486,project 3,2023.1.3,59.744008868988445,
44,0.5,4.0,60.104264200199395,60.588318900205195,60.588318900205195,60.60482200002298,60.88821880007163,right,4.0,0,0,0.4650245998054743,061451,001,2023-09-01_11h37.13.486,project 3,2023.1.3,59.744008868988445,
45,0.5,4.5,61.071427300106734,61.57205460011028,61.57205460011028,61.57205460011028,,right,4.5,1,1,0.03547209990210831,061451,001,2023-09-01_11h37.13.486,project 3,2023.1.3,59.744008868988445,
46,0.5,4.5,61.63804610003717,62.1384344000835,62.1384344000835,62.1384344000835,62.43830780009739,right,4.5,1,1,0.45887299976311624,061451,001,2023-09-01_11h37.13.486,project 3,2023.1.3,59.744008868988445,
47,0.5,4.5,62.622517600189894,63.12226840015501,63.12226840015501,63.12226840015501,63.42201380012557,left,-4.5,1,1,0.5619306999724358,061451,001,2023-09-01_11h37.13.486,project 3,2023.1.3,59.744008868988445,
48,0.5,4.0,63.706031900132075,64.20535340020433,64.20535340020433,64.20535340020433,64.50590750016272,right,4.0,1,1,0.307928099995479,061451,001,2023-09-01_11h37.13.486,project 3,2023.1.3,59.744008868988445,
49,0.5,4.0,64.5392949001398,65.02274899999611,65.02274899999611,65.0393479000777,65.3227161001414,right,4.0,1,1,0.364078399958089,061451,001,2023-09-01_11h37.13.486,project 3,2023.1.3,59.744008868988445,
